Folder: data-driven-video/project/app/data-keywords/v2.old/3.091x-Fall-2012/fixDoc10

Note: project/app/README.md
Video Analytics Module for Insights
======

This module attempts to provide useful video analytics for instructors on how students are using online video materials. It provides more in-depth accounts of video-related interactions, such as video heatmap, repeat and skip actions, play speed information, and transitions before and after watching a video. It is an Insights module that can be plugged into potentially various MOOC platforms and video players.

The module consists of
- algorithm for detecting various features related to video interaction
- user interface (or a dashboard) for interactively querying and exploring video analytics data
- system architecture for efficiently storing, processing, and visualizing video analytics data.


How it works
======

- Step 1. Retrieve all video-related events from the tracking log. The current LMS system records play / pause events and their respective timestamps.
- Step 2. Construct watching segments from the events. Segments take into account both play-pause (played and stopped) and play-play (seeking to another part of a video) sequences.
- Step 3. Divide a video stream into N bins (e.g., 10 seconds) to render a heatmap. Process the segments to figure out if a student played, skipped, or replayed a bin.
- Step 4. Feed the processed data to draw a visualization. Repeat Step 3 for different view modes and bin sizes.
- Step 5. Compute other useful measures and display.


Typical Workflow
======

- Step 1. configure the video source
 - inside `common.py`, add XX_CONF for a new setting
- Step 2. run both lms and edxanalytics servers
 - consult `edxanalytics/INSTALL.md` for more information
 - `scripts/run.sh` is a convenience script running both at the same time
- Step 3. populate tracking events (dummy or real) if not already available
 - run `send_event.py`
- Step 4. process the collected tracking events
 - open `[edxanalytics]/query/process_data` in the web browser
- Step 5. access the analytics dashboard
 - open `[edxanalytics]/view/video_list` in the web browser for the dashboard
 - open `[edxanalytics]/view/video_single?vid=[youtube video ID]` in the web browser for a single video


Files
======

- `send_event`: send random data to the module
- `common`: stores configuration parameters for different video players and hosting services
- `dummy_values`: creates dummy data used for testing
- `video_analytics`: main module 
- `video_logic`: feature detection and extraction logic
- `single-view.html`: front-end visualization for a single video view
- `list-view.html`: front-end visualization for an aggreagate view


Limitations
======

- Currently only works with YouTube videos
- Currently only tested with the edX tracking log format

File: oUudZVGIGBA
460 40410 anode:7.59846 bleed:4.89784 call:0.272867 cima:0.174887 diffraction:2.70062 discharge:3.19309 electrons:0.811863 gas:1.92743 lots:1.18427 makes:0.957998 michael:1.82979 minutes:2.59525 monochromators:9.79568 pure:2.00747 rays:2.37211 rotating:2.54646 single:1.71979 sources:3.10608 talk:1.20111 times:0.297682 tube:2.75777 wavelength:1.98007
40410 82450 beam:3.19309 current:2.45549 function:1.35688 generates:1.54794 lambda:5.6368 melts:1.9534 rays:4.74422 rate:2.25878 rotate:2.54646 shortest:4.89784 spectrum:3.02604 spot:3.19309 superimpose:3.51155 talked:0.600554 time:0.297682 wavelength:3.96014 white:3.02604
82450 117180 called:0.272867 color:2.157 crystal:1.74498 diffraction:2.70062 experiment:1.87741 intense:2.75777 loue:4.89784 make:0.478999 messes:2.88294 noise:4.89784 single:3.43957 specific:2.22369 spectrum:3.02604 wavelengths:3.96014 white:9.07811
117180 167060 called:0.545734 crystal:2.61746 turns:2.03564 normal:5.40123 generating:1.54794 goniometer:4.49237 easy:2.49994 left:1.46385 nickel:7.02309 planes:2.64655 oriented:2.49994 face:3.2884 111:3.35793 ray:4.74422 spectrum:3.02604 planes:1.49664 tube:2.75777 turn:1.8551 white:3.02604
167060 202535 angle:6.0224 case:0.778803 crystal:0.872488 diffraction:2.88294 diffraction:5.40123 plane:1.28692 fcc:2.22369 turns:1.48011 lots:2.36854 odd:3.79923 theta:3.35793 angle:2.54646 2:5.19051 times:0.595364 angle:0.927548 data:2.33289
202535 235170 d11:4.01494 wavelength:3.51155 spacings:2.25878 angle:1.13664 law:1.20896 bragg's:2.49994 wavelengths:4.74422 theta:1.82979 rays:3.51155 supposed:2.8184 2:2.59525 depend:3.96014 angles:3.02604
235170 283730 angle:4.01494 bragg's:3.51155 calculate:1.49664 constant:2.547 crystal:1.74498 d11:2.25878 diffraction:2.70062 lattice:3.56865 light:3.35793 loue:4.89784 nickels:3.51155 prism:8.98475 put:0.898647 rays:2.37211 slit:3.79923 spread:3.51155 wavelengths:1.98007 white:3.02604
283730 315270 atoms:1.04417 avogadro's:2.95193 cell:5.35297 crystal:0.872488 cubed:2.54646 density:3.52469 determine:2.06463 dimension:1.9534 divide:4.29631 fcc:2.22369 mass:3.85485 minute:2.59525 molecular:1.58365 multiply:1.74084 nickel:3.51155 number:0.7468 that'll:2.8184 times:0.297682 unit:3.62688 volume:1.51345 weight:2.18979
315270 360710 204:2.00747 anickel:2.95193 89:4.89784 copper:3.79923 d111:1.49664 angle:4.82587 353:2.25878 put:3.64508 calculate:2.8184 angstroms:0.803495 nickel:3.51155 means:0.449323 solve:2.157 weight:2.18979 lambda:0.828813
360710 391280 angle:4.01494 copper:7.2388 d111:2.25878 222:3.06109 2:0.881457 intense:2.75777 kalpha:7.29015 equals:0.478999 444:4.89784 nickel:3.51155 peak:2.59525 plug:2.18979 pull:2.157 put:0.449323 set:1.76235 solve:2.157 spectrum:3.02604 theta:5.19051 thing:0.323129