Folder: data-driven-video/project/app/data-keywords/v2/3.091x-Fall-2012/fixlength10000_2

Note: project/app/README.md
Video Analytics Module for Insights
======

This module attempts to provide useful video analytics for instructors on how students are using online video materials. It provides more in-depth accounts of video-related interactions, such as video heatmap, repeat and skip actions, play speed information, and transitions before and after watching a video. It is an Insights module that can be plugged into potentially various MOOC platforms and video players.

The module consists of
- algorithm for detecting various features related to video interaction
- user interface (or a dashboard) for interactively querying and exploring video analytics data
- system architecture for efficiently storing, processing, and visualizing video analytics data.


How it works
======

- Step 1. Retrieve all video-related events from the tracking log. The current LMS system records play / pause events and their respective timestamps.
- Step 2. Construct watching segments from the events. Segments take into account both play-pause (played and stopped) and play-play (seeking to another part of a video) sequences.
- Step 3. Divide a video stream into N bins (e.g., 10 seconds) to render a heatmap. Process the segments to figure out if a student played, skipped, or replayed a bin.
- Step 4. Feed the processed data to draw a visualization. Repeat Step 3 for different view modes and bin sizes.
- Step 5. Compute other useful measures and display.


Typical Workflow
======

- Step 1. configure the video source
 - inside `common.py`, add XX_CONF for a new setting
- Step 2. run both lms and edxanalytics servers
 - consult `edxanalytics/INSTALL.md` for more information
 - `scripts/run.sh` is a convenience script running both at the same time
- Step 3. populate tracking events (dummy or real) if not already available
 - run `send_event.py`
- Step 4. process the collected tracking events
 - open `[edxanalytics]/query/process_data` in the web browser
- Step 5. access the analytics dashboard
 - open `[edxanalytics]/view/video_list` in the web browser for the dashboard
 - open `[edxanalytics]/view/video_single?vid=[youtube video ID]` in the web browser for a single video


Files
======

- `send_event`: send random data to the module
- `common`: stores configuration parameters for different video players and hosting services
- `dummy_values`: creates dummy data used for testing
- `video_analytics`: main module 
- `video_logic`: feature detection and extraction logic
- `single-view.html`: front-end visualization for a single video view
- `list-view.html`: front-end visualization for an aggreagate view


Limitations
======

- Currently only works with YouTube videos
- Currently only tested with the edX tracking log format

File: UvkCjMfhdKs
1190 9110 cima:0.174887 copper:2.41293 diffraction:2.70062 identified:7.29015 intensity:2.75777 kalpha:3.64508 made:1.51345 pattern:2.95193 peaks:5.19051 powder:3.2884 problem:1.6207 radiation:2.59525 shown:1.87741 2:2.59525 versus:2.12525
9110 20580 determine:0.522083 copper:2.41293 problem:2.06463 powder:2.70062 pattern:4.66578 identified:7.29015 intensity:2.75777 kalpha:3.64508 made:1.51345 diffraction:2.95193 peaks:5.19051 theta:3.2884 element:1.6207 radiation:2.59525 atomic:2.59525 shown:1.87741 2:2.59525 versus:2.12525
20580 32540 determine:0.522083 type:0.872488 crystal:2.88294 problem:4.12925 powder:5.40123 pattern:4.66578 intensity:2.75777 determine:1.78432 lattice:3.02604 diffraction:5.90386 theta:6.5768 element:1.6207 atomic:2.59525 element:4.49237 2:2.59525 pattern:1.78432 versus:2.12525
32540 44880 atomic:0.522083 calculate:1.49664 crystal:0.872488 data:5.76587 determine:2.06463 diffraction:2.70062 lattice:3.56865 lines:1.71979 parameter:6.05208 pattern:2.95193 powder:3.2884 radius:2.59525 start:0.642227 strategy:4.49237 tabulate:3.79923 type:1.78432
44880 52625 atomic:0.522083 calculate:1.49664 data:5.76587 reflection:1.53054 determine:2.06463 lattice:3.56865 lines:1.71979 parameter:6.05208 radius:2.59525 theta:2.54646 start:0.642227 tabulate:3.79923 2:2.59525 this'll:3.98155
52625 62840 data:2.88294 reflection:1.53054 38:1.4321 lines:1.71979 theta:2.54646 tabulate:3.79923 2:5.19051 this'll:3.98155
62840 70240 degrees:1.2735 reflection:6.12218 38:1.4321 22:0.881457 2:2.49994 theta:2.54646 theta:3.51155 19:1.17215 2:7.78576 this'll:3.98155
70240 77880 sine:1.2735 theta:4.59163 equals:1.13664 squared:2.70062 divide:1.4321 recall:0.881457 diffraction:1.78432 theta:2.95193 constant:2.59525 22:2.49994 degrees:3.51155 322:1.17215 2:5.19051
77880 89650 sine:1.2735 depends:0.872488 theta:4.59163 equals:1.13664 squared:2.70062 divide:1.4321 recall:0.881457 sine:1.05839 squared:3.2884 diffraction:1.78432 crystal:1.71979 patterns:3.02604 theta:2.95193 line:1.23428 constant:2.59525 22:2.49994 degrees:7.02309 322:3.51644 lattice:2.22369 2:7.78576 radiation:0.297682
89650 100080 constant:1.2735 crystal:0.872488 depends:1.13664 diffraction:5.40123 equals:0.881457 important:1.05839 indexing:3.2884 lattice:1.78432 line:1.71979 parameter:3.02604 patterns:5.90386 powder:3.2884 pretty:1.23428 radiation:2.59525 recall:2.49994 sine:7.02309 squared:3.51644 sum:2.22369 tabulate:3.79923 theta:5.19051 times:0.297682
100080 109770 calculator:2.99328 crystal:0.872488 degrees:1.53054 diffraction:2.70062 important:1.05839 indexing:3.2884 line:1.71979 making:0.478999 parameter:3.02604 pattern:2.95193 plug:2.18979 powder:3.2884 pretty:1.23428 set:1.76235 sine:3.51155 squares:2.34429 sum:2.22369 tabulate:3.79923 theta:2.59525 times:0.297682
109770 118540 calculator:2.99328 degrees:1.53054 006:3.2884 making:0.478999 plug:2.18979 set:1.76235 index:3.51155 tests:1.17215 0141:6.38618 test:2.59525
118540 127070 squared:0.778803 theta:2.86421 0141:3.2884 squared:2.54646 tests:7.02309 test:2.34429 0284:6.38618 sine:5.19051
127070 140370 case:0.778803 ends:1.54794 divide:2.86421 divided:0.685712 index:3.2884 133:0.803495 0106:2.95193 reflection:2.54646 sine:7.02309 squared:2.34429 tests:6.38618 theta:5.19051
140370 151470 case:0.778803 ends:1.54794 43:0.872488 nice:4.49237 divide:4.29631 divided:1.37142 close:2.22369 133:0.803495 0106:2.95193 means:2.12525 reflection:5.09293 fcc:4.20469 sine:7.02309 squared:2.34429 theta:5.19051
151470 160350 depending:2.64655 cubic:2.12525 body:1.74084 close:1.54794 fcc:0.872488 simple:3.96014 theta:1.13664 answer:2.06463 means:4.49237 reflection:1.4321 ratio:0.685712 diagnostic:2.22369 43:0.803495 nice:2.95193 crystal:2.12525 seventh:2.54646 ended:4.20469 determine:1.4166 divide:3.51155 sine:1.17215 squared:2.59525
160350 172460 angle:2.00747 answer:2.64655 body:2.12525 centered:1.74084 crystal:0.872488 cubic:3.96014 defraction:4.89784 depending:1.13664 despacing:4.89784 determine:2.06463 divide:1.4321 ended:0.685712 experiment:1.87741 factors:1.98007 fcc:2.22369 largest:3.51155 produce:1.71979 ratio:2.12525 reflection:5.09293 satisfy:2.95193 seventh:4.20469 simple:1.4166 sine:3.51155 smallest:3.39376 squared:1.17215 structure:1.13664 theta:2.59525
172460 180030 angle:2.00747 body:2.12525 centered:1.74084 crystal:2.61746 cubic:3.96014 defraction:4.89784 despacing:9.79568 determine:2.06463 experiment:1.87741 factors:1.98007 fcc:4.44738 largest:7.02309 odd:3.79923 produce:1.71979 reflection:2.54646 satisfy:2.95193 simple:1.4166 smallest:3.39376 structure:1.13664
180030 193840 crystal:1.74498 d111:2.25878 defraction:4.89784 despacing:4.89784 experiment:1.87741 factors:1.98007 fcc:4.44738 fraction:2.09448 largest:3.51155 odd:3.79923 reflection:2.54646 satisfy:2.95193 structure:1.13664
193840 202950 crystal:3.48995 d111:2.25878 despacing:4.89784 factors:1.98007 fcc:6.67107 fraction:2.09448 largest:3.51155 odd:3.79923 111:1.67896 crystal:2.54646 satisfy:2.95193 structure:1.13664
202950 213340 fcc:3.51155 crystal:3.48995 d111:2.25878 despacing:4.89784 fcc:6.67107 fraction:2.09448 largest:3.51155 crystal:2.49994 111:3.35793 crystal:2.54646
213340 219310 fcc:3.51155 fcc:2.61746 lambda:4.51756 lattice:1.4321 equal:2.33289 law:1.76291 planes:4.44738 bragg's:2.8184 reflection:1.78432 crystal:2.49994 d111:3.02604 111:3.35793 crystal:5.09293 equals:3.51155 d111:2.59525
219310 228240 crystal:3.51155 fcc:0.872488 equals:4.51756 parameter:1.4321 lattice:2.33289 lambda:1.76291 planes:2.22369 law:2.8184 d111:1.78432 bragg's:2.49994 equal:3.02604 111:1.67896 theta1:2.54646 divided:2.8184 d111:3.51155 element:2.34429 square:2.22369 sine:2.59525
228240 240800 bragg's:3.51155 d111:4.51756 element:1.4321 parameter:2.33289 equals:1.76291 lambda:2.8184 equal:1.78432 law:2.49994 lattice:3.02604 squares:2.75777 1:2.54646 square:2.8184 sine:3.51155 divided:2.34429 root:2.22369 theta1:2.59525
240800 248650 solve:7.02309 d111:2.25878 3:2.06463 divided:1.4321 element:2.33289 equal:0.881457 lattice:3.56865 bragg's:4.99989 parameter:6.05208 radical:2.75777 root:2.8184 parameter:2.157 square:2.34429 law:2.00747 sum:2.22369
248650 258589 bragg's:7.02309 copper:2.41293 determine:2.06463 kalpha:3.64508 lambda:2.8184 lattice:1.78432 law:4.99989 parameter:3.02604 radiation:2.59525 solve:4.314 substitute:2.00747
258589 270170 bragg's:7.02309 copper:2.41293 meters:1.53054 2:0.685712 sine:0.881457 kalpha:3.64508 lambda:2.8184 law:4.99989 01542:4.82587 radiation:2.59525 10:3.51155 solve:4.314 substitute:4.01494 9:2.59525
270170 286290 copper:2.41293 degrees:0.872488 meters:1.53054 2:0.685712 sine:0.881457 19:2.22369 kalpha:3.64508 lambda:2.8184 01542:4.82587 radiation:2.59525 ends:2.22369 10:3.51155 substitute:2.00747 9:2.59525
286290 294220 equaling:0.522083 10:1.49664 degrees:0.872488 meters:1.53054 2:0.685712 sine:0.881457 19:2.22369 01542:4.82587 410:2.59525 ends:2.22369 10:3.51155 substitute:2.00747 9:2.59525
294220 303350 equaling:0.522083 10:1.49664 degrees:0.872488 meters:1.53054 2:0.685712 sine:1.76291 19:2.22369 01542:4.82587 fcc:5.51555 410:2.59525 ends:4.44738 10:3.51155 9:2.59525 meters:0.595364
303350 317360 times:2.64655 atomic:0.522083 calculate:1.49664 crystal:0.872488 times:0.881457 fcc:2.22369 equals:2.41293 8:5.51555 radius:2.59525 relationship:4.44738 4:0.595364
317360 327155 times:2.64655 times:0.881457 equals:2.41293 8:5.51555 relationship:2.22369 4:0.595364